Folder: Mn-salt-data

Note: Raman-R=0,5.txt
#Wave	#Intensity
1318.707031	303.393494
1317.582031	314.799255
1316.455078	273.689209
1315.328125	278.200592
1314.201172	323.748932
1313.072266	348.765259
1311.945313	287.166687
1310.816406	305.344482
1309.689453	380.472656
1308.560547	350.791779
1307.431641	316.566650
1306.304688	268.691589
1305.175781	257.259918
1304.046875	350.538788
1302.916016	320.889923
1301.787109	327.658234
1300.658203	323.049103
1299.527344	311.617859
1298.398438	281.997345
1297.267578	304.684052
1296.136719	270.528748
1295.005859	288.663391
1293.875000	340.879395
1292.744141	343.089905
1291.613281	277.148346
1290.480469	290.726013
1289.349609	302.027863
1288.216797	311.055145
1287.085938	333.699524
1285.953125	297.324677
1284.820313	279.116913
1283.687500	308.561218
1282.554688	299.431641
1281.421875	294.841400
1280.289063	294.788025
1279.154297	310.604919
1278.021484	276.546967
1276.886719	333.156067
1275.753906	310.436096
1274.619141	294.520996
1273.484375	314.853821
1272.349609	319.326172
1271.214844	346.440002
1270.078125	312.418610
1268.943359	258.038116
1267.808594	291.937500
1266.671875	325.824554
1265.535156	312.191864
1264.400391	282.731110
1263.263672	303.032715
1262.126953	273.584320
1260.990234	280.316467
1259.853516	305.127777
1258.714844	255.356842
1257.578125	305.016876
1256.441406	280.112701
1255.302734	311.681641
1254.164063	343.239075
1253.025391	313.825989
1251.886719	316.026245
1250.748047	315.968719
1249.609375	342.989319
1248.470703	275.243927
1247.332031	313.540497
1246.191406	295.441193
1245.052734	329.210358
1243.912109	293.079102
1242.771484	290.771667
1241.630859	290.718658
1240.490234	324.464020
1239.349609	313.140808
1238.208984	355.879303
1237.068359	288.254730
1235.925781	319.724243
1234.785156	294.903076
1233.642578	272.341675
1232.501953	303.796814
1231.359375	330.740601
1230.216797	296.937347
1229.074219	260.897278
1227.931641	260.849640
1226.787109	294.526398
1225.644531	323.695068
1224.500000	316.893494
1223.357422	283.129669
1222.212891	321.270966
1221.068359	269.548706
1219.925781	323.399323
1218.781250	354.776031
1217.634766	267.155853
1216.490234	280.574554
1215.345703	289.499939
1214.199219	323.103607
1213.054688	266.960358
1211.908203	316.256439
1210.761719	304.985840
1209.617188	280.266510
1208.470703	277.973450
1207.322266	302.576965
1206.175781	302.521515
1205.029297	264.377747
1203.882813	300.170532
1202.734375	286.677521
1201.585938	329.170837
1200.439453	291.050079
1199.291016	326.811676
1198.142578	277.515137
1196.994141	268.513763
1195.845703	293.073730
1194.695313	290.783142
1193.546875	304.148071
1192.398438	299.620270
1191.248047	317.449738
1190.097656	319.626587
1188.947266	306.159424
1187.798828	294.931519
1186.648438	321.684357
1185.496094	303.757172
1184.345703	326.032318
1183.195313	339.368500
1182.042969	310.286499
1180.892578	305.765686
1179.740234	323.561096
1178.587891	352.505157
1177.4

Note: Raman-R=1,5.txt
#Wave		#Intensity
1318.707031	1063.017822
1317.582031	996.864319
1316.455078	1005.807861
1315.328125	1032.990723
1314.201172	1030.524780
1313.072266	1005.264526
1311.945313	989.129700
1310.816406	1052.754761
1309.689453	1061.678223
1308.560547	974.927795
1307.431641	1011.191345
1306.304688	979.130310
1305.175781	1008.549988
1304.046875	1047.063843
1302.916016	1035.495850
1301.787109	1073.990845
1300.658203	971.422302
1299.527344	964.423157
1298.398438	968.797363
1297.267578	1045.930298
1296.136719	998.000977
1295.005859	1018.277100
1293.875000	1006.730469
1292.744141	1006.548523
1291.613281	1013.181641
1290.480469	1010.727173
1289.349609	1044.607666
1288.216797	1055.771118
1287.085938	1044.229736
1285.953125	994.108459
1284.820313	1027.967163
1283.687500	1052.738281
1282.554688	1004.910767
1281.421875	993.388733
1280.289063	956.927246
1279.154297	965.822632
1278.021484	995.115784
1276.886719	1026.664551
1275.753906	987.957214
1274.619141	980.981506
1273.484375	1001.189819
1272.349609	942.125427
1271.214844	989.505127
1270.078125	941.783630
1268.943359	955.193726
1267.808594	1011.597351
1266.671875	977.473694
1265.535156	941.100098
1264.400391	1022.355774
1263.263672	931.712524
1262.126953	969.980774
1260.990234	983.368225
1259.853516	958.327271
1258.714844	1003.348999
1257.578125	915.050598
1256.441406	1016.538025
1255.302734	944.079163
1254.164063	1002.619385
1253.025391	959.539917
1251.886719	930.020081
1250.748047	979.503052
1249.609375	907.116455
1248.470703	956.585510
1247.332031	990.246582
1246.191406	944.960754
1245.052734	1012.434570
1243.912109	980.687805
1242.771484	908.379700
1241.630859	987.091309
1240.490234	991.417847
1239.349609	957.444885
1238.208984	991.056335
1237.068359	1008.891479
1235.925781	990.694824
1234.785156	972.504761
1233.642578	1003.837891
1232.501953	1003.654724
1231.359375	996.721680
1230.216797	931.303467
1229.074219	933.382568
1227.931641	951.201721
1226.787109	993.745544
1225.644531	971.085144
1224.500000	1018.104614
1223.357422	939.271423
1222.212891	975.046143
1221.068359	999.576477
1219.925781	983.672913
1218.781250	902.657959
1217.634766	936.167969
1216.490234	958.442688
1215.345703	976.220764
1214.199219	962.579468
1213.054688	946.699707
1211.908203	933.068665
1210.761719	1067.450439
1209.617188	995.506653
1208.470703	923.589233
1207.322266	986.176758
1206.175781	954.623413
1205.029297	938.765076
1203.882813	940.833069
1202.734375	1028.007568
1201.585938	929.291809
1200.439453	958.226379
1199.291016	1020.726868
1198.142578	975.779053
1196.994141	919.659668
1195.845703	991.081421
1194.695313	986.425903
1193.546875	984.008484
1192.398438	977.119873
1191.248047	965.762634
1190.097656	938.763428
1188.947266	911.774109
1187.798828	929.481201
1186.648438	962.819153
1185.496094	973.809753
1184.345703	928.968811
1183.195313	875.213501
1182.042969	919.698059
1180.892578	937.383850
1179.740234	96

Note: README.md
# Mn-salt-data

This repository gathers raw data and code to generate the figure in the article about Mn salts.

File: XRD-MnOH2SO4.txt
  1    0    0    3      9.74000     9.072     100.0
  2    1    0    1      7.24000    12.215      75.0
  3    0    1    2      6.65000    13.304      75.0
  4    0    0    6      4.87000    18.202       2.0
  5    0    1    5      4.60000    19.280       2.0
  6    1    1    0      4.31000    20.591      16.0
  7    1    1    3      3.94300    22.531      10.0
  8    0    2    1      3.70500    24.000       8.0
  9    1    0    7      3.64300    24.414       6.0
 10    2    0    2      3.61900    24.579      10.0
 11    0    2    4      3.32500    26.791       2.0
 12    0    0    9      3.24500    27.464       2.0
 13    1    1    6      3.22800    27.611      18.0
 14    2    0    5      3.14700    28.337       2.0
 15    2    1    1      2.80900    31.832      10.0
 16    0    2    7      2.78400    32.125       2.0
 17    1    2    2      2.77200    32.268      10.0
 18    1    0   10      2.72400    32.853       2.0
 19    2    1    4      2.63400    34.009      50.0
 20    3    0    3      2.41000    37.281       2.0
 21    2    1    7      2.33800    38.473      12.0
 22    1    2    8      2.23400    40.340       2.0
 23    3    0    6      2.21700    40.663       4.0
 24    2    2    0      2.15500    41.887       2.0
 25    1    3    1      2.06600    43.782       6.0
 26    2    1   10      2.03100    44.577       2.0
 27    1    3    4      1.99400    45.450       2.0
 28    2    2    6      1.97300    45.961       4.0
 29    3    1    5      1.95200    46.485       4.0
 30    1    2   11      1.93500    46.917       4.0
 31    0    0    0      1.88000    48.376       2.0
 32    1    3    7      1.85500    49.071       2.0
 33    4    0    4      1.80900    50.405       2.0
 34    2    2    9      1.79600    50.795       2.0
 35    0    4    5      1.77800    51.347       2.0
 36    2    1   13      1.75900    51.942       4.0
 37    3    0   12      1.74100    52.520       2.0
 38    3    2    1      1.71000    53.547       2.0
 39    2    3    2      1.70200    53.819       2.0
 40    1    2   14      1.67900    54.617       2.0
 41    4    1    0      1.63000    56.403      30.0
 42    4    1    3      1.60800    57.246      18.0
 43    3    2    7      1.58600    58.115       2.0
 44    4    0   10      1.57300    58.642       2.0
 45    2    0   17      1.56300    59.054       2.0
 46    4    1    6      1.54700    59.726       4.0

File: XRD-pyrochroite.txt
  1    0    0    1      4.73400    18.729     100.0
  2    1    0    0      2.87694    31.061      29.7
  3    0    1    1      2.45854    36.518      88.0
  4    0    0    2      2.36700    37.984       2.3
  5    0    1    2      1.82786    49.849      40.4
  6    1    1    0      1.66100    55.260      19.5
  7    0    0    3      1.57800    58.438       1.8
  8    1    1    1      1.56732    58.875      15.2
  9    2    0    0      1.43847    64.756       2.8
 10    1    0    3      1.38354    67.664      10.3
 11    2    0    1      1.37633    68.067       8.7
 12    1    1    2      1.35964    69.020       2.5
 13    2    0    2      1.22927    77.604       6.7
 14    0    0    4      1.18350    81.214       1.2
 15    1    1    3      1.14403    84.648       2.5
 16    1    0    4      1.09451    89.463       2.0

File: XRD-R=1,5-dried.ASC
  3.020       92
  3.292       81
  3.564       80
  3.836       68
  4.108       80
  4.380       77
  4.652       96
  4.924       86
  5.196       90
  5.468       89
  5.740       94
  6.012       95
  6.284      106
  6.556       85
  6.828      107
  7.100       97
  7.372       98
  7.644      109
  7.916      155
  8.188      124
  8.460      116
  8.732      155
  9.004      354
  9.276      118
  9.548       90
  9.820      106
 10.092       96
 10.364       78
 10.636      104
 10.908       94
 11.180      104
 11.452      117
 11.724      127
 11.996      103
 12.268      116
 12.540      100
 12.812       94
 13.084      119
 13.356      107
 13.628       95
 13.900      102
 14.172      102
 14.444      116
 14.716      106
 14.988      118
 15.260      125
 15.532      118
 15.804      129
 16.076      159
 16.348      145
 16.620      167
 16.892      124
 17.164      129
 17.436      125
 17.708      133
 17.980      156
 18.252      157
 18.524      165
 18.796      192
 19.068      185
 19.340      140
 19.612      155
 19.884      145
 20.156      135
 20.428      151
 20.700      115
 20.972      117
 21.244      140
 21.516      121
 21.788      116
 22.060      120
 22.332      156
 22.604      157
 22.876      144
 23.148      158
 23.420      128
 23.692      181
 23.964      181
 24.236      323
 24.508      169
 24.780      145
 25.052      141
 25.324      153
 25.596      137
 25.868      135
 26.140      126
 26.412      129
 26.684      232
 26.956      146
 27.228      248
 27.500      403
 27.772      159
 28.044      219
 28.316      151
 28.588      145
 28.860      355
 29.132      146
 29.404      143
 29.676      142
 29.948      154
 30.220      146
 30.492      151
 30.764      181
 31.036      243
 31.308      259
 31.580      222
 31.852      365
 32.124      517
 32.396      174
 32.668      186
 32.940      203
 33.212      207
 33.484      255
 33.756     1054
 34.028      371
 34.300      207
 34.572      196
 34.844      191
 35.116      199
 35.388      210
 35.660      255
 35.932      266
 36.204      505
 36.476      396
 36.748      276
 37.020      236
 37.292      225
 37.564      216
 37.836      210
 38.108      224
 38.380      389
 38.652      253
 38.924      178
 39.196      181
 39.468      189
 39.740      189
 40.012      203
 40.284      208
 40.556      254
 40.828      207
 41.100      213
 41.372      200
 41.644      189
 41.916      209
 42.188      222
 42.460      174
 42.732      189
 43.004      193
 43.276      220
 43.548      222
 43.820      274
 44.092      203
 44.364      258
 44.636      232
 44.908      201
 45.180      220
 45.452      220
 45.724      243
 45.996      238
 46.268      240
 46.540      238
 46.812      296
 47.084      217
 47.356      221
 47.628      211
 47.900      266
 48.172      230
 48.444      268
 48.716      913
 48.988      297
 49.260      283
 49.532      298
 49.804      333
 50.076      283
 50.348      274
 50.620      362
 50.892      269
 51.164      241
 51.436      250
 51.708      365
 51.980      286
 52.252      252
 52.524      263
 52.796      233
 53.068      236
 53.340      266
 53.612      297
 53.884      256
 54.156      238
 54.428      471
 54.700      278
 54.972      261
 55.244      378
 55.516      339
 55.788      351
 56.060      395
 56.332      469
 56.604      307
 56.876      320
 57.148      381
 57.420      316
 57.692      321
 57.964      302
 58.236      326
 58.508      299
 58.780      330
 59.052      335
 59.324      453
 59.596      322
 59.868      331
 60.140      306
 60.412      289
 60.684      286
 60.956      296
 61.228      317
 61.500      256
 61.772      333
 62.044      291
 62.316      258
 62.588      270
 62.860      282
 63.132      306
 63.404      312
 63.676      290
 63.948      261
 64.220      252
 64.492      284
 64.764      294
 65.036      330
 65.308      309
 65.580      299
 65.852      280
 66.124      308
 66.396      301
 66.668      329
 66.940      312
 67.212      313
 67.484      381
 67.756      361
 68.028      375
 68.300      356
 68.572      304
 68.844      348
 69.116      314
 69.388      327
 69.660      289
 69.932      311
 70.204      311
 70.476      309
 70.748      304
 71.020      311
 71.292      329
 71.564      316
 71.836      327
 72.108      268
 72.380      335
 72.652      307
 72.924      402
 73.196      299
 73.468      319
 73.740      323
 74.012      404
 74.284      314
 74.556      315
 74.828      329
 75.100      306
 75.372      334
 75.644      324
 75.916      333
 76.188      330
 76.460      314
 76.732      345
 77.004      314
 77.276      365
 77.548      325
 77.820      330
 78.092      315
 78.364      329
 78.636      343
 78.908      346
 79.180      343
 79.452      318
 79.724      335
 79.979      351

File: XRD_R=1,5_wet.csv
5.00436 60.091 1.34942
5.41236 59.4806 1.34255
5.82036 60.8139 1.35751
6.22836 62.1723 1.37259
6.63636 62.8518 1.38007
7.04436 63.3343 1.38536
7.45236 62.2785 1.37376
7.86036 67.4332 1.42949
8.26836 70.9774 1.46657
8.67636 66.3613 1.41808
9.08436 86.7569 1.62142
9.49236 66.7407 1.42213
9.90036 70.1856 1.45837
10.3084 71.4624 1.47157
10.7164 76.4785 1.52234
11.1244 74.6195 1.50373
11.5324 81.8329 1.57473
11.9404 2657.04 8.97309
12.3484 85.147 1.6063
12.7564 82.2986 1.57921
13.1644 88.1107 1.63402
13.5724 88.9629 1.6419
13.9804 94.3336 1.69074
14.3884 98.9692 1.73178
14.7964 104.826 1.78228
15.2044 108.061 1.80958
15.6124 114.294 1.86103
16.0204 123.869 1.93742
16.4284 137.545 2.04157
16.8364 148.295 2.11986
17.2444 162.912 2.22188
17.6524 180.832 2.34089
18.0604 205.815 2.49736
18.4684 265.79 2.838
18.8764 303.367 3.03199
19.2844 281.659 2.92149
19.6924 289.818 2.96351
20.1004 298.431 3.00722
20.5084 306.212 3.04617
20.9164 304.716 3.03872
21.3244 294.618 2.98795
21.7324 281.563 2.92099
22.1404 272.759 2.87496
22.5484 261.636 2.81573
22.9564 248.914 2.74643
23.3644 242.396 2.71023
23.7724 253.146 2.76967
24.1804 236.74 2.67842
24.5884 218.325 2.57214
24.9964 210.601 2.52623
25.4044 207.659 2.50853
25.8124 203.523 2.48342
26.2204 202.272 2.47577
26.6284 253.214 2.77005
27.0364 197.447 2.44607
27.4444 196.374 2.43941
27.8524 193.744 2.42302
28.2604 190.341 2.40165
28.6684 194.603 2.42838
29.0764 189.406 2.39574
29.4844 189.63 2.39716
29.8924 188.335 2.38896
30.3004 187.113 2.3812
30.7084 191.508 2.409
31.1164 254.69 2.77811
31.5244 219.95 2.5817
31.9324 373.586 3.36464
32.3404 196.844 2.44233
32.7484 198.587 2.45312
33.1564 199.219 2.45702
33.5644 456.904 3.72097
33.9724 210.89 2.52796
34.3804 199.91 2.46128
34.7884 198.599 2.45319
35.1964 200.17 2.46288
35.6044 232.369 2.65358
36.0124 220.829 2.58685
36.4204 307.527 3.05271
36.8284 234.173 2.66386
37.2364 208.262 2.51217
37.6444 212.136 2.53542
38.0524 203.173 2.48128
38.4604 200.685 2.46604
38.8684 197.105 2.44395
39.2764 194.521 2.42787
39.6844 196.791 2.442
40.0924 193.695 2.42271
40.5004 189.604 2.39699
40.9084 189.044 2.39345
41.3164 188.466 2.38979
41.7244 187.637 2.38452
42.1324 185.505 2.37094
42.5404 182.41 2.35108
42.9484 181.434 2.34478
43.3564 354.007 3.27528
43.7644 185.069 2.36815
44.1724 181.519 2.34533
44.5804 182.33 2.35056
44.9884 177.18 2.31713
45.3964 182.562 2.35206
45.8044 173.918 2.2957
46.2124 175.502 2.30613
46.6204 174.077 2.29675
47.0284 195.7 2.43522
47.4364 170.511 2.2731
47.8444 174.363 2.29863
48.2524 179.025 2.32916
48.6604 365.28 3.32703
49.0684 267.397 2.84656
49.4764 192.68 2.41636
49.8844 317.622 3.1024
50.2924 185.957 2.37383
50.7004 185.673 2.37201
51.1084 171.507 2.27973
51.5164 173.02 2.28977
51.9244 175.2 2.30414
52.3324 169.946 2.26934
52.7404 169.126 2.26385
53.1484 181.472 2.34503
53.5564 176.778 2.3145
53.9644 184.004 2.36133
54.3724 189.252 2.39477
54.7804 171.218 2.27781
55.1884 176.666 2.31377
55.5964 191.35 2.408
56.0044 200.273 2.46351
56.4124 172.418 2.28578
56.8204 169.005 2.26305
57.2284 217.236 2.56572
57.6364 169.246 2.26466
58.0444 171.342 2.27864
58.4524 174.351 2.29856
58.8604 212.227 2.53596
59.2684 479.205 3.81069
59.6764 174.978 2.30269
60.0844 172.082 2.28355
60.4924 170.513 2.27312
60.9004 167.855 2.25533
61.3084 167.777 2.25481
61.7164 190.834 2.40475
62.1244 172.089 2.2836
62.5324 193.022 2.4185
62.9404 169.267 2.26479
63.3484 168.237 2.25789
63.7564 200.539 2.46515
64.1644 169.229 2.26454
64.5724 208.565 2.51399
64.9804 173.398 2.29226
65.3884 222.982 2.59943
65.7964 174.13 2.2971
66.2044 173.901 2.29559
66.6124 203.426 2.48283
67.0204 178.824 2.32786
67.4284 188.062 2.38722
67.8364 195.984 2.43699
68.2444 211.921 2.53414
68.6524 175.129 2.30368
69.0604 172.594 2.28695
69.4684 180.107 2.33619
69.8764 170.34 2.27196
70.2844 168.649 2.26066
70.6924 171.745 2.28131
71.1004 175.804 2.30812
71.5084 177.046 2.31626
71.9164 169.541 2.26663
72.3244 173.56 2.29334
72.7324 173.871 2.29539
73.1404 170.341 2.27197
73.5484 258.067 2.79646
73.9564 171.744 2.28131
74.3644 200.671 2.46596
74.7724 169.711 2.26777
75.1804 169.516 2.26646
75.5884 168.899 2.26234
75.9964 169.197 2.26433
76.4044 171.847 2.28199
76.8124 197.239 2.44478
77.2204 186.754 2.37891
77.6284 189.155 2.39415
78.0364 186.733 2.37878
78.4444 179.263 2.33071
78.8524 203.104 2.48086
79.2604 173.769 2.29472
79.6684 177.283 2.3178
80.0764 175.219 2.30427
80.4844 219.489 2.57899
80.8924 181.912 2.34787
81.3004 179.725 2.33371
81.7084 254.457 2.77683
82.1164 179.149 2.32997
82.5244 197.818 2.44837
82.9324 182.291 2.35031
83.3404 175.554 2.30647
83.7484 172.806 2.28835
84.1564 189.697 2.39758
84.5644 181.095 2.34259
84.9724 172.896 2.28895
85.3804 179.972 2.33532
85.7884 276.035 2.89218
86.1964 188.471 2.38982
86.6044 174.756 2.30123
87.0124 175.022 2.30297
87.4204 175.479 2.30598
87.8284 183.971 2.36112
88.2364 178.255 2.32415
88.6444 174.894 2.30214
89.0524 184.932 2.36728
89.4604 180.449 2.33841
89.8684 178.636 2.32663
90.2764 184.368 2.36366
90.6844 178.775 2.32754
91.0924 226.585 2.62034
91.5004 193.591 2.42207
91.9084 180.911 2.3414
92.3164 246.689 2.73412
92.7244 185.948 2.37377
93.1324 202.205 2.47536
93.5404 196.578 2.44068
93.9484 205.257 2.49398
94.3564 179.282 2.33083
94.7644 179.108 2.3297
95.1724 183.96 2.36105
95.5804 174.748 2.30117
95.9884 188.18 2.38798
96.3964 176.507 2.31273
96.8044 176.802 2.31466
97.2124 173.409 2.29234
97.6204 174.898 2.30216
98.0284 176.166 2.31049
98.4364 173.916 2.29569
98.8444 241.203 2.70355
99.2524 176.544 2.31297
99.6604 234.387 2.66508
100.068 178.474 2.32558
100.476 183.716 2.35948
100.884 175.774 2.30792
101.292 187.71 2.38499
101.7 187.71 2.38499
102.108 184.937 2.36731
102.516 201.544 2.47131
102.924 185.401 2.37028
103.332 184.961 2.36747
103.74 183.76 2.35976
104.148 183.053 2.35522
104.556 179.169 2.3301
104.964 179.346 2.33125
105.372 183.703 2.3594
105.78 196.091 2.43765
106.188 187.937 2.38643
106.596 187.746 2.38522
107.004 187.735 2.38515
107.412 185.578 2.37141
107.82 194.052 2.42495
108.228 193.806 2.42341
108.636 185.326 2.3698
109.044 181.782 2.34703
109.452 199.636 2.45959
109.86 187.013 2.38056
110.268 196.782 2.44194
110.676 197.891 2.44882
111.084 205.314 2.49432
111.492 195.856 2.43619
111.9 190.921 2.4053
112.308 183.915 2.36076
112.716 177.998 2.32247
113.124 182.44 2.35127
113.532 178.892 2.3283
113.94 178.516 2.32585
114.348 181.765 2.34692
114.756 182.724 2.3531
115.164 183.794 2.35998
115.572 202.123 2.47486
115.98 181.972 2.34826
116.388 187.542 2.38392
116.796 185.042 2.36798
117.204 192.438 2.41484
117.612 183.272 2.35663
118.02 183.741 2.35964
118.428 187.233 2.38196
118.836 198.867 2.45485
119.244 211.902 2.53402
119.652 190.453 2.40235
120.06 191.112 2.4065
120.468 188.288 2.38866
120.876 185.765 2.3726
121.284 197.305 2.44519
121.692 196.555 2.44053
122.1 188.847 2.3922
122.508 186.221 2.37551
122.916 194.668 2.42879
123.324 185.584 2.37144
123.732 193.258 2.41998
124.14 186.988 2.3804
124.548 183.376 2.3573
124.956 187.405 2.38305
124.99 192.699 2.41648