Folder: Mn-salt-data (part 2)

File: XRD_R=2_wet.ASC
6.01036 62.5002 5.59018
6.23136 68.9786 5.87276
6.45236 62.4278 5.58694
6.67336 54.9141 5.23995
6.89436 72.883 6.03668
7.11536 68.4542 5.85039
7.33636 68.3243 5.84484
7.55736 66.922 5.78455
7.77836 67.7735 5.82123
7.99936 61.1183 5.52803
8.22036 70.539 5.93881
8.44136 71.7639 5.99016
8.66236 68.5899 5.85619
8.88336 62.5402 5.59197
9.10436 81.9825 6.40244
9.32536 69.5001 5.89492
9.54636 65.5001 5.72277
9.76736 75.4543 6.14224
9.98836 84.1134 6.48511
10.2094 79.226 6.29388
10.4304 73.2619 6.05235
10.6514 76.9915 6.20449
10.8724 88.2384 6.64223
11.0934 86.564 6.57891
11.3144 86.9222 6.5925
11.5354 86.5383 6.57793
11.7564 90.801 6.73799
11.9774 107.065 7.3166
12.1984 84.4373 6.49759
12.4194 102.041 7.14287
12.6404 103.098 7.17975
12.8614 86.6866 6.58356
13.0824 102.906 7.17309
13.3034 109.676 7.40527
13.5244 107.45 7.32973
13.7454 101.526 7.1248
13.9664 125.114 7.90929
14.1874 122.016 7.81076
14.4084 125.79 7.93062
14.6294 122.958 7.84086
14.8504 124.899 7.90249
15.0714 134.194 8.19129
15.2924 138.231 8.31356
15.5134 153.337 8.75604
15.7344 146.438 8.5568
15.9554 145.041 8.5159
16.1764 156.165 8.83644
16.3974 180.757 9.50675
16.6184 184.714 9.61024
16.8394 189.908 9.74444
17.0604 206.288 10.156
17.2814 212.216 10.3009
17.5024 229.026 10.7011
17.7234 254.01 11.2696
17.9444 268.841 11.594
18.1654 340.914 13.0559
18.3864 574.508 16.9486
18.6074 1079.18 23.2291
18.8284 1236.16 24.8612
19.0494 719.674 18.9694
19.2704 434.463 14.7388
19.4914 379.896 13.7822
19.7124 385.272 13.8793
19.9334 378.086 13.7493
20.1544 368.354 13.5712
20.3754 378.273 13.7527
20.5964 384.676 13.8686
20.8174 394.503 14.0446
21.0384 367.225 13.5504
21.2594 383.973 13.8559
21.4804 368.286 13.5699
21.7014 371.136 13.6223
21.9224 364.668 13.5031
22.1434 367.408 13.5538
22.3644 350.294 13.2343
22.5854 340.319 13.0445
22.8064 333.715 12.9173
23.0274 330.277 12.8506
23.2484 318.203 12.6135
23.4694 312.065 12.4913
23.6904 308.535 12.4204
23.9114 301.982 12.2878
24.1324 291.711 12.0771
24.3534 295.875 12.163
24.5744 287.567 11.991
24.7954 304.148 12.3318
25.0164 275.403 11.7346
25.2374 266.483 11.543
25.4584 275.088 11.7279
25.6794 272.088 11.6638
25.9004 266.445 11.5422
26.1214 266.947 11.5531
26.3424 268.824 11.5936
26.5634 254.568 11.282
26.7844 248.261 11.1414
27.0054 251.381 11.2112
27.2264 253.674 11.2622
27.4474 257.066 11.3372
27.6684 258.266 11.3637
27.8894 249.695 11.1735
28.1104 248.854 11.1547
28.3314 245.688 11.0835
28.5524 257.033 11.3365
28.7734 252.409 11.2341
28.9944 267.58 11.5668
29.2154 240.315 10.9616
29.4364 244.557 11.058
29.6574 234.851 10.8363
29.8784 246.456 11.1008
30.0994 255.845 11.3103
30.3204 242.372 11.0085
30.5414 245.194 11.0723
30.7624 245.251 11.0736
30.9834 278.729 11.8053
31.2044 334.99 12.942
31.4254 272.796 11.6789
31.6464 251.523 11.2143
31.8674 253.824 11.2655
32.0884 241.724 10.9937
32.3094 253.122 11.2499
32.5304 224.018 10.5834
32.7514 248.342 11.1432
32.9724 224.325 10.5907
33.1934 248.514 11.1471
33.4144 262.115 11.448
33.6354 263.92 11.4874
33.8564 261.688 11.4387
34.0774 245.471 11.0786
34.2984 242.293 11.0067
34.5194 255.042 11.2925
34.7404 255.268 11.2975
34.9614 254.384 11.2779
35.1824 257.376 11.3441
35.4034 249.806 11.176
35.6244 256.925 11.3341
35.8454 259.341 11.3873
36.0664 301.491 12.2778
36.2874 437.305 14.7869
36.5084 883.237 21.0147
36.7294 585.753 17.1136
36.9504 314.068 12.5313
37.1714 284.687 11.9308
37.3924 280.717 11.8473
37.6134 264.354 11.4968
37.8344 280.486 11.8424
38.0554 294.473 12.1341
38.2764 279.087 11.8128
38.4974 260.381 11.4101
38.7184 258.918 11.378
38.9394 232.108 10.7728
39.1604 240.535 10.9667
39.3814 248.693 11.1511
39.6024 252.862 11.2441
39.8234 242.194 11.0044
40.0444 247.756 11.13
40.2654 245.614 11.0818
40.4864 241.357 10.9854
40.7074 230.274 10.7302
40.9284 237.987 10.9084
41.1494 232.902 10.7913
41.3704 243.231 11.028
41.5914 232.839 10.7898
41.8124 236.901 10.8835
42.0334 231.683 10.763
42.2544 218.868 10.4611
42.4754 215.476 10.3797
42.6964 232.561 10.7834
42.9174 228.369 10.6857
43.1384 224.675 10.5989
43.3594 245.632 11.0822
43.5804 215.373 10.3772
43.8014 213.445 10.3307
44.0224 223.874 10.58
44.2434 215.703 10.3852
44.4644 212.947 10.3186
44.6854 204.078 10.1014
44.9064 219.007 10.4644
45.1274 205.87 10.1457
45.3484 204.42 10.1099
45.5694 202.809 10.07
45.7904 208.041 10.1991
46.0114 202.054 10.0512
46.2324 216.765 10.4107
46.4534 213.109 10.3225
46.6744 212.66 10.3116
46.8954 208.804 10.2177
47.1164 206.6 10.1637
47.3374 200.517 10.0129
47.5584 206.34 10.1573
47.7794 208.176 10.2024
48.0004 222.514 10.5478
48.2214 209.988 10.2467
48.4424 195.534 9.88771
48.6634 218.39 10.4496
48.8844 221.043 10.5129
49.1054 235.6 10.8536
49.3264 264.14 11.4922
49.5474 340.976 13.0571
49.7684 554.832 16.6558
49.9894 520.742 16.136
50.2104 346.121 13.1553
50.4314 261.827 11.4417
50.6524 217.305 10.4237
50.8734 213.846 10.3404
51.0944 206.165 10.153
51.3154 203.28 10.0817
51.5364 200.01 10.0002
51.7574 201.784 10.0445
51.9784 193.472 9.83545
52.1994 211.14 10.2747
52.4204 209.787 10.2418
52.6414 202.26 10.0563
52.8624 205.629 10.1397
53.0834 207.683 10.1903
53.3044 182.087 9.54168
53.5254 197.237 9.93067
53.7464 199.333 9.98332
53.9674 187.509 9.6827
54.1884 195.201 9.87929
54.4094 184.153 9.59565
54.6304 199.129 9.97821
54.8514 179.381 9.47051
55.0724 208.399 10.2078
55.2934 579.183 17.0174
55.5144 246.512 11.1021
55.7354 198.692 9.96725
55.9564 196.466 9.91125
56.1774 179.216 9.46616
56.3984 194.272 9.85576
56.6194 185.314 9.62586
56.8404 187.47 9.68169
57.0614 188.294 9.70294
57.2824 195.271 9.88106
57.5034 199.154 9.97882
57.7244 185.83 9.63924
57.9454 197.883 9.94695
58.1664 218.538 10.4532
58.3874 212.372 10.3047
58.6084 238.551 10.9213
58.8294 373.058 13.6576
59.0504 319.231 12.6339
59.2714 212.138 10.299
59.4924 197.233 9.93059
59.7134 204.229 10.1052
59.9344 197.323 9.93284
60.1554 176.269 9.38799
60.3764 178.436 9.44552
60.5974 190.377 9.75646
60.8184 191.044 9.77354
61.0394 182.503 9.55256
61.2604 179.303 9.46844
61.4814 192.212 9.80337
61.7024 191.411 9.78292
61.9234 185.837 9.63942
62.1444 193.755 9.84265
62.3654 183.09 9.5679
62.5864 190.536 9.76053
62.8074 178.954 9.45923
63.0284 181.642 9.53002
63.2494 182.382 9.5494
63.4704 181.782 9.53368
63.6914 199.412 9.98528
63.9124 186.119 9.64673
64.1334 179.393 9.47082
64.3544 187.961 9.69436
64.5754 188.508 9.70845
64.7964 242.566 11.0129
65.0174 207.079 10.1754
65.2384 180.802 9.50793
65.4594 186.182 9.64837
65.6804 190.056 9.74823
65.9014 175.102 9.35686
66.1224 183.649 9.58252
66.3434 186.311 9.6517
66.5644 191.52 9.7857
66.7854 209.547 10.2359
67.0064 233.271 10.7998
67.2274 222.195 10.5403
67.4484 277.348 11.776
67.4824 283.587 11.9077